condition,stim,practice.thisRepN,practice.thisTrialN,practice.thisN,practice.thisIndex,trials.thisRepN,trials.thisTrialN,trials.thisN,trials.thisIndex,thisRow.t,notes,prac_instructions.started,key_instruct.started,prac_instructions.stopped,key_instruct.keys,key_instruct.rt,key_instruct.duration,simon_setup.started,simon_setup.stopped,simon_trial.started,fixation_cross.started,left_stim.started,right_stim.started,resp.started,ITI.started,fixation_cross.stopped,left_stim.stopped,right_stim.stopped,resp.stopped,ITI.stopped,simon_trial.stopped,resp.keys,resp.corr,trial_instructions.started,key_instruct_2.started,trial_instructions.stopped,key_instruct_2.keys,key_instruct_2.rt,key_instruct_2.duration,session,participant,counterbalance,date,expName,psychopyVersion,frameRate,expStart,
,,,,,,,,,,,,0.015496999956667423,0.11525929998606443,1.5192836001515388,space,1.3932367004454136,None,,,,,,,,,,,,,,,,,,,,,,,001,1,0,2023-10-26_15h19.43.132,simon_task,2023.2.2,59.57892000914629,2023-10-26 15h19.53.835942 +0100,
congruent,X,0,0,0,0,,,,,1.5492638000287116,,,,,,,,1.5241723000071943,1.5248655998148024,1.52488199993968,1.5492638000287116,1.5492638000287116,1.5492638000287116,1.7342086997814476,3.0340233999304473,3.050554499961436,3.050554499961436,3.050554499961436,3.5345545997843146,4.033619299996644,4.01785479998216,None,0,,,,,,,001,1,0,2023-10-26_15h19.43.132,simon_task,2023.2.2,59.57892000914629,2023-10-26 15h19.53.835942 +0100,
congruent,O,0,1,1,1,,,,,4.033619299996644,,,,,,,,4.018759300000966,4.019203799776733,4.019224199932069,4.033619299996644,4.033619299996644,4.033619299996644,4.234182099811733,5.534201100002974,5.534201100002974,5.534201100002974,5.534201100002974,6.052945000119507,6.533011000137776,6.518164500128478,None,0,,,,,,,001,1,0,2023-10-26_15h19.43.132,simon_task,2023.2.2,59.57892000914629,2023-10-26 15h19.53.835942 +0100,
congruent,X,1,0,2,0,,,,,6.533011000137776,,,,,,,,6.518702500034124,6.519343799911439,6.519374100025743,6.533011000137776,6.533011000137776,6.533011000137776,6.73379010008648,8.033794799819589,8.033794799819589,8.033794799819589,8.033794799819589,8.53315160004422,9.033528000116348,9.018178999889642,None,0,,,,,,,001,1,0,2023-10-26_15h19.43.132,simon_task,2023.2.2,59.57892000914629,2023-10-26 15h19.53.835942 +0100,
congruent,O,1,1,3,1,,,,,9.033528000116348,,,,,,,,9.018671200145036,9.019311199896038,9.019335099961609,9.033528000116348,9.033528000116348,9.033528000116348,9.23336589988321,10.533789199776947,10.533789199776947,10.533789199776947,10.533789199776947,11.034862599801272,11.533410400152206,11.518334399908781,None,0,,,,,,,001,1,0,2023-10-26_15h19.43.132,simon_task,2023.2.2,59.57892000914629,2023-10-26 15h19.53.835942 +0100,
congruent,X,2,0,4,0,,,,,11.533410400152206,,,,,,,,11.51901079993695,11.51955149974674,11.5195790999569,11.533410400152206,11.533410400152206,11.533410400152206,11.733808199875057,13.033512500114739,13.033512500114739,13.033512500114739,13.033512500114739,13.534149100072682,14.033327999990433,14.017884300090373,None,0,,,,,,,001,1,0,2023-10-26_15h19.43.132,simon_task,2023.2.2,59.57892000914629,2023-10-26 15h19.53.835942 +0100,
congruent,O,2,1,5,1,,,,,14.033327999990433,,,,,,,,14.01843099994585,14.019003099761903,14.019025899935514,14.033327999990433,14.033327999990433,14.033327999990433,14.233379399869591,15.534478900022805,15.534478900022805,15.534478900022805,15.534478900022805,16.03349700011313,,16.53283330006525,None,0,,,,,,,001,1,0,2023-10-26_15h19.43.132,simon_task,2023.2.2,59.57892000914629,2023-10-26 15h19.53.835942 +0100,
congruent,X,3,0,6,0,,,,,16.54968630010262,,,,,,,,16.533288899809122,16.533823700156063,16.533840300049633,16.54968630010262,16.54968630010262,16.54968630010262,16.733519400004297,18.03409199975431,18.051259299740195,18.051259299740195,18.051259299740195,18.53415390010923,19.04934119991958,19.019675199873745,None,0,,,,,,,001,1,0,2023-10-26_15h19.43.132,simon_task,2023.2.2,59.57892000914629,2023-10-26 15h19.53.835942 +0100,
congruent,O,3,1,7,1,,,,,19.04934119991958,,,,,,,,19.02070500003174,19.021644600201398,19.021685999818146,19.04934119991958,19.04934119991958,19.04934119991958,19.233511900063604,20.53439649986103,20.55227269977331,20.55227269977331,20.55227269977331,21.0342060001567,,21.533617599867284,None,0,,,,,,,001,1,0,2023-10-26_15h19.43.132,simon_task,2023.2.2,59.57892000914629,2023-10-26 15h19.53.835942 +0100,
congruent,X,4,0,8,0,,,,,21.54960440006107,,,,,,,,21.534283299930394,21.53507750015706,21.535113700199872,21.54960440006107,21.54960440006107,21.54960440006107,21.750040700193495,23.050381800159812,23.050381800159812,23.050381800159812,23.050381800159812,23.549828399904072,24.05010880017653,24.034885100089014,None,0,,,,,,,001,1,0,2023-10-26_15h19.43.132,simon_task,2023.2.2,59.57892000914629,2023-10-26 15h19.53.835942 +0100,
congruent,O,4,1,9,1,,,,,24.05010880017653,,,,,,,,24.035557399969548,24.03620530012995,24.036229100078344,24.05010880017653,24.05010880017653,24.05010880017653,24.249537599738687,25.550270800013095,25.550270800013095,25.550270800013095,25.550270800013095,26.050302399788052,26.550210299901664,26.53452910017222,None,0,,,,,,,001,1,0,2023-10-26_15h19.43.132,simon_task,2023.2.2,59.57892000914629,2023-10-26 15h19.53.835942 +0100,
,,,,,,,,,,,,,,,,,,,,,,,,,,,,,,,,,,26.53513119975105,26.550210299901664,28.301999600138515,space,1.740980800241232,None,001,1,0,2023-10-26_15h19.43.132,simon_task,2023.2.2,59.57892000914629,2023-10-26 15h19.53.835942 +0100,
incongruent,X,,,,,0,0,0,0,28.331390200182796,,,,,,,,28.30689529981464,28.307483999989927,28.307502099778503,28.331390200182796,28.331390200182796,28.331390200182796,28.515917900018394,29.81499500013888,29.83228649990633,29.83228649990633,29.83228649990633,30.315836099907756,30.815915199927986,30.801190999802202,None,0,,,,,,,001,1,0,2023-10-26_15h19.43.132,simon_task,2023.2.2,59.57892000914629,2023-10-26 15h19.53.835942 +0100,
congruent,X,,,,,0,1,1,1,30.815915199927986,,,,,,,,30.80204109987244,30.802578600123525,30.80260040005669,30.815915199927986,30.815915199927986,30.815915199927986,31.016365199815482,32.3160410001874,32.3160410001874,32.3160410001874,32.3160410001874,32.834039699751884,33.31601419998333,33.300540199968964,None,0,,,,,,,001,1,0,2023-10-26_15h19.43.132,simon_task,2023.2.2,59.57892000914629,2023-10-26 15h19.53.835942 +0100,
incongruent,O,,,,,0,2,2,2,33.31601419998333,,,,,,,,33.30107869999483,33.30149699980393,33.30151899997145,33.31601419998333,33.31601419998333,33.31601419998333,33.51545999990776,34.81572900013998,34.81572900013998,34.81572900013998,34.81572900013998,35.31789130019024,35.81578409997746,35.799276900012046,None,0,,,,,,,001,1,0,2023-10-26_15h19.43.132,simon_task,2023.2.2,59.57892000914629,2023-10-26 15h19.53.835942 +0100,
congruent,O,,,,,0,3,3,3,35.81578409997746,,,,,,,,35.799756799824536,35.80029059993103,35.80030889995396,35.81578409997746,35.81578409997746,35.81578409997746,36.00017620017752,37.300321800168604,37.31610250007361,37.31610250007361,37.31610250007361,37.79995119990781,38.315033100079745,38.28505459986627,None,0,,,,,,,001,1,0,2023-10-26_15h19.43.132,simon_task,2023.2.2,59.57892000914629,2023-10-26 15h19.53.835942 +0100,
incongruent,X,,,,,1,0,4,0,38.315033100079745,,,,,,,,38.28614680003375,38.287021399941295,38.28707550000399,38.315033100079745,38.315033100079745,38.315033100079745,38.50053900014609,39.79992510005832,39.819274600129575,39.819274600129575,39.819274600129575,40.30012369994074,40.798650899901986,40.78323179995641,None,0,,,,,,,001,1,0,2023-10-26_15h19.43.132,simon_task,2023.2.2,59.57892000914629,2023-10-26 15h19.53.835942 +0100,
congruent,X,,,,,1,1,5,1,40.798650899901986,,,,,,,,40.783637300133705,40.78400400001556,40.784027399960905,40.798650899901986,40.798650899901986,40.798650899901986,40.99873529979959,42.298448299989104,42.298448299989104,42.298448299989104,42.298448299989104,42.79878289997578,43.29870520019904,43.282839599996805,None,0,,,,,,,001,1,0,2023-10-26_15h19.43.132,simon_task,2023.2.2,59.57892000914629,2023-10-26 15h19.53.835942 +0100,
incongruent,O,,,,,1,2,6,2,43.29870520019904,,,,,,,,43.2833986999467,43.28387159993872,43.283898800145835,43.29870520019904,43.29870520019904,43.29870520019904,43.497465199790895,44.79869249975309,44.79869249975309,44.79869249975309,44.79869249975309,45.2982006999664,45.79848330002278,45.78227309975773,None,0,,,,,,,001,1,0,2023-10-26_15h19.43.132,simon_task,2023.2.2,59.57892000914629,2023-10-26 15h19.53.835942 +0100,
congruent,O,,,,,1,3,7,3,45.79848330002278,,,,,,,,45.78272800007835,45.783218999858946,45.783240399789065,45.79848330002278,45.79848330002278,45.79848330002278,45.99885350000113,47.29861199995503,47.29861199995503,47.29861199995503,47.29861199995503,47.79851259989664,48.29844579985365,48.282733200117946,None,0,,,,,,,001,1,0,2023-10-26_15h19.43.132,simon_task,2023.2.2,59.57892000914629,2023-10-26 15h19.53.835942 +0100,
