condition,stim,practice.thisRepN,practice.thisTrialN,practice.thisN,practice.thisIndex,trials.thisRepN,trials.thisTrialN,trials.thisN,trials.thisIndex,thisRow.t,notes,prac_instructions.started,key_instruct.started,prac_instructions.stopped,key_instruct.keys,key_instruct.rt,key_instruct.duration,simon_setup.started,simon_setup.stopped,simon_trial.started,fixation_cross.started,left_stim.started,right_stim.started,resp.started,ITI.started,fixation_cross.stopped,left_stim.stopped,right_stim.stopped,ITI.stopped,resp.stopped,simon_trial.stopped,resp.keys,resp.corr,trial_instructions.started,key_instruct_2.started,trial_instructions.stopped,key_instruct_2.keys,key_instruct_2.rt,key_instruct_2.duration,session,participant,counterbalance,date,expName,psychopyVersion,frameRate,expStart,
,,,,,,,,,,,,0.055496999993920326,0.1621313001960516,3.721910400316119,space,3.557290299795568,None,,,,,,,,,,,,,,,,,,,,,,,001,1,0,2023-10-25_17h03.18.907,simon_task,2023.2.2,59.10078159982132,2023-10-25 17h03.33.355729 +0100,
incongruent,X,0,0,0,0,,,,,3.7518140003085136,,,,,,,,3.7271139002405107,3.7277067000977695,3.7277279002591968,3.7518140003085136,3.7518140003085136,3.7518140003085136,3.937150100246072,4.736825100146234,4.753642600029707,4.753642600029707,4.753642600029707,5.736504800152034,5.736504800152034,5.72057620016858,None,0,,,,,,,001,1,0,2023-10-25_17h03.18.907,simon_task,2023.2.2,59.10078159982132,2023-10-25 17h03.33.355729 +0100,
congruent,X,0,1,1,1,,,,,5.736504800152034,,,,,,,,5.7210811004042625,5.7215221002697945,5.72153910016641,5.736504800152034,5.736504800152034,5.736504800152034,5.93676479998976,6.736569400411099,6.736569400411099,6.736569400411099,6.736569400411099,7.7362658004276454,7.7362658004276454,7.721430100034922,None,0,,,,,,,001,1,0,2023-10-25_17h03.18.907,simon_task,2023.2.2,59.10078159982132,2023-10-25 17h03.33.355729 +0100,
incongruent,O,0,2,2,2,,,,,7.7362658004276454,,,,,,,,7.722158300224692,7.722814199980348,7.722845000214875,7.7362658004276454,7.7362658004276454,7.7362658004276454,7.936609600204974,8.736112700309604,8.736112700309604,8.736112700309604,8.736112700309604,9.736430200282484,9.736430200282484,9.721847000066191,None,0,,,,,,,001,1,0,2023-10-25_17h03.18.907,simon_task,2023.2.2,59.10078159982132,2023-10-25 17h03.33.355729 +0100,
congruent,O,0,3,3,3,,,,,9.736430200282484,,,,,,,,9.722510700114071,9.723223900422454,9.723252100404352,9.736430200282484,9.736430200282484,9.736430200282484,9.936480300035328,10.73611620021984,10.73611620021984,10.73611620021984,10.73611620021984,11.735938100144267,11.735938100144267,11.72032600035891,None,0,,,,,,,001,1,0,2023-10-25_17h03.18.907,simon_task,2023.2.2,59.10078159982132,2023-10-25 17h03.33.355729 +0100,
incongruent,X,1,0,4,0,,,,,11.735938100144267,,,,,,,,11.72095079999417,11.721420200075954,11.721440500114113,11.735938100144267,11.735938100144267,11.735938100144267,11.936195800080895,12.736058800015599,12.736058800015599,12.736058800015599,12.736058800015599,13.736720700282604,13.736720700282604,13.720304800197482,None,0,,,,,,,001,1,0,2023-10-25_17h03.18.907,simon_task,2023.2.2,59.10078159982132,2023-10-25 17h03.33.355729 +0100,
congruent,X,1,1,5,1,,,,,13.736720700282604,,,,,,,,13.720827900338918,13.721376100089401,13.721396200358868,13.736720700282604,13.736720700282604,13.736720700282604,13.936034200247377,14.73624650016427,14.73624650016427,14.73624650016427,14.73624650016427,15.736083100084215,15.736083100084215,15.720567500218749,None,0,,,,,,,001,1,0,2023-10-25_17h03.18.907,simon_task,2023.2.2,59.10078159982132,2023-10-25 17h03.33.355729 +0100,
incongruent,O,1,2,6,2,,,,,15.736083100084215,,,,,,,,15.721078100148588,15.721734800375998,15.721756000071764,15.736083100084215,15.736083100084215,15.736083100084215,15.936006500385702,16.7349740001373,16.7349740001373,16.7349740001373,16.7349740001373,17.735558100044727,17.735558100044727,17.72057650005445,None,0,,,,,,,001,1,0,2023-10-25_17h03.18.907,simon_task,2023.2.2,59.10078159982132,2023-10-25 17h03.33.355729 +0100,
congruent,O,1,3,7,3,,,,,17.735558100044727,,,,,,,,17.72111440030858,17.721615300048143,17.721646700054407,17.735558100044727,17.735558100044727,17.735558100044727,17.935731900390238,18.73589410027489,18.73589410027489,18.73589410027489,18.73589410027489,19.735566799994558,19.735566799994558,19.720380500424653,None,0,,,,,,,001,1,0,2023-10-25_17h03.18.907,simon_task,2023.2.2,59.10078159982132,2023-10-25 17h03.33.355729 +0100,
incongruent,X,2,0,8,0,,,,,19.735566799994558,,,,,,,,19.720918599981815,19.721523800399154,19.721547200344503,19.735566799994558,19.735566799994558,19.735566799994558,19.936106800101697,20.735915300436318,20.735915300436318,20.735915300436318,20.735915300436318,21.73542210040614,21.73542210040614,21.71997780026868,None,0,,,,,,,001,1,0,2023-10-25_17h03.18.907,simon_task,2023.2.2,59.10078159982132,2023-10-25 17h03.33.355729 +0100,
congruent,X,2,1,9,1,,,,,21.73542210040614,,,,,,,,21.720529300160706,21.721280300058424,21.721306400373578,21.73542210040614,21.73542210040614,21.73542210040614,21.93524830043316,22.73568780021742,22.73568780021742,22.73568780021742,22.73568780021742,23.73577960021794,23.73577960021794,23.720095800235868,None,0,,,,,,,001,1,0,2023-10-25_17h03.18.907,simon_task,2023.2.2,59.10078159982132,2023-10-25 17h03.33.355729 +0100,
incongruent,O,2,2,10,2,,,,,23.73577960021794,,,,,,,,23.720655400305986,23.721170900389552,23.721189300063998,23.73577960021794,23.73577960021794,23.73577960021794,23.935450800228864,24.735373500268906,24.735373500268906,24.735373500268906,24.735373500268906,25.73552260035649,25.73552260035649,25.720422600395977,None,0,,,,,,,001,1,0,2023-10-25_17h03.18.907,simon_task,2023.2.2,59.10078159982132,2023-10-25 17h03.33.355729 +0100,
congruent,O,2,3,11,3,,,,,25.73552260035649,,,,,,,,25.72105440031737,25.721642900258303,25.721671200357378,25.73552260035649,25.73552260035649,25.73552260035649,25.9354610000737,26.74178760033101,26.74178760033101,26.74178760033101,26.74178760033101,,27.73552280012518,27.735694900155067,None,0,,,,,,,001,1,0,2023-10-25_17h03.18.907,simon_task,2023.2.2,59.10078159982132,2023-10-25 17h03.33.355729 +0100,
incongruent,X,3,0,12,0,,,,,27.752367299981415,,,,,,,,27.736282100435346,27.737024900037795,27.737050500232726,27.752367299981415,27.752367299981415,27.752367299981415,27.95216380013153,28.751817100215703,28.751817100215703,28.751817100215703,28.751817100215703,29.75217070011422,29.75217070011422,29.73602860001847,None,0,,,,,,,001,1,0,2023-10-25_17h03.18.907,simon_task,2023.2.2,59.10078159982132,2023-10-25 17h03.33.355729 +0100,
congruent,X,3,1,13,1,,,,,29.75217070011422,,,,,,,,29.736561099998653,29.736991700250655,29.73701350018382,29.75217070011422,29.75217070011422,29.75217070011422,29.935379000380635,30.75238270033151,30.75238270033151,30.75238270033151,30.75238270033151,31.751637700013816,31.735130900051445,31.73592620017007,None,0,,,,,,,001,1,0,2023-10-25_17h03.18.907,simon_task,2023.2.2,59.10078159982132,2023-10-25 17h03.33.355729 +0100,
incongruent,O,3,2,14,2,,,,,31.751637700013816,,,,,,,,31.736335900146514,31.736758599989116,31.736781700048596,31.751637700013816,31.751637700013816,31.751637700013816,31.952157500199974,32.75200220011175,32.75200220011175,32.75200220011175,32.75200220011175,33.751964800059795,33.751964800059795,33.735705700237304,None,0,,,,,,,001,1,0,2023-10-25_17h03.18.907,simon_task,2023.2.2,59.10078159982132,2023-10-25 17h03.33.355729 +0100,
congruent,O,3,3,15,3,,,,,33.751964800059795,,,,,,,,33.73607250023633,33.736537400167435,33.73655330017209,33.751964800059795,33.751964800059795,33.751964800059795,33.951124200131744,34.75197900040075,34.75197900040075,34.75197900040075,34.75197900040075,35.751738500315696,35.751738500315696,35.73635370004922,None,0,,,,,,,001,1,0,2023-10-25_17h03.18.907,simon_task,2023.2.2,59.10078159982132,2023-10-25 17h03.33.355729 +0100,
incongruent,X,4,0,16,0,,,,,35.751738500315696,,,,,,,,35.736983000300825,35.737501400057226,35.737525400239974,35.751738500315696,35.751738500315696,35.751738500315696,35.951908600050956,36.7519596000202,36.7519596000202,36.7519596000202,36.7519596000202,37.7674872004427,37.7674872004427,37.7375905001536,None,0,,,,,,,001,1,0,2023-10-25_17h03.18.907,simon_task,2023.2.2,59.10078159982132,2023-10-25 17h03.33.355729 +0100,
congruent,X,4,1,17,1,,,,,37.7674872004427,,,,,,,,37.73841430013999,37.739198200404644,37.739231400191784,37.7674872004427,37.7674872004427,37.7674872004427,37.952767100185156,38.75172260031104,38.76819410035387,38.76819410035387,38.76819410035387,39.751718000043184,,39.751898700371385,None,0,,,,,,,001,1,0,2023-10-25_17h03.18.907,simon_task,2023.2.2,59.10078159982132,2023-10-25 17h03.33.355729 +0100,
incongruent,O,4,2,18,2,,,,,39.768096200190485,,,,,,,,39.752475700341165,39.75321190012619,39.75323730008677,39.768096200190485,39.768096200190485,39.768096200190485,39.96843650005758,40.767794200219214,40.767794200219214,40.767794200219214,40.767794200219214,41.767980800010264,41.767980800010264,41.75239390041679,None,0,,,,,,,001,1,0,2023-10-25_17h03.18.907,simon_task,2023.2.2,59.10078159982132,2023-10-25 17h03.33.355729 +0100,
congruent,O,4,3,19,3,,,,,41.767980800010264,,,,,,,,41.75296310009435,41.75345220044255,41.7534756003879,41.767980800010264,41.767980800010264,41.767980800010264,41.9688068004325,42.76768050016835,42.76768050016835,42.76768050016835,42.76768050016835,43.767616300377995,,43.767802500166,None,0,,,,,,,001,1,0,2023-10-25_17h03.18.907,simon_task,2023.2.2,59.10078159982132,2023-10-25 17h03.33.355729 +0100,
,,,,,,,,,,,,,,,,,,,,,,,,,,,,,,,,,,43.76814100006595,43.78462480008602,47.186185400001705,space,3.39799979981035,None,001,1,0,2023-10-25_17h03.18.907,simon_task,2023.2.2,59.10078159982132,2023-10-25 17h03.33.355729 +0100,
incongruent,X,,,,,0,0,0,0,47.20153299998492,,,,,,,,47.189965300261974,47.19028790015727,47.19030370004475,47.20153299998492,47.20153299998492,47.20153299998492,47.40244990028441,48.201280100271106,48.201280100271106,48.201280100271106,48.201280100271106,49.20132240001112,49.20132240001112,49.18605610029772,None,0,,,,,,,001,1,0,2023-10-25_17h03.18.907,simon_task,2023.2.2,59.10078159982132,2023-10-25 17h03.33.355729 +0100,
congruent,X,,,,,0,1,1,1,49.20132240001112,,,,,,,,49.18664410011843,49.187079400289804,49.18709950009361,49.20132240001112,49.20132240001112,49.20132240001112,49.401240300387144,50.20107140019536,50.20107140019536,50.20107140019536,50.20107140019536,51.201010200195014,51.201010200195014,51.18664020020515,None,0,,,,,,,001,1,0,2023-10-25_17h03.18.907,simon_task,2023.2.2,59.10078159982132,2023-10-25 17h03.33.355729 +0100,
incongruent,O,,,,,0,2,2,2,51.201010200195014,,,,,,,,51.187414300162345,51.18812860036269,51.18815660011023,51.201010200195014,51.201010200195014,51.201010200195014,51.40093800006434,52.201158800162375,52.201158800162375,52.201158800162375,52.201158800162375,53.20114750042558,53.20114750042558,53.18564540008083,None,0,,,,,,,001,1,0,2023-10-25_17h03.18.907,simon_task,2023.2.2,59.10078159982132,2023-10-25 17h03.33.355729 +0100,
congruent,O,,,,,0,3,3,3,53.20114750042558,,,,,,,,53.18626550026238,53.186761300079525,53.18678530026227,53.20114750042558,53.20114750042558,53.20114750042558,53.40164990024641,54.20051470026374,54.20051470026374,54.20051470026374,54.20051470026374,55.200745000038296,55.200745000038296,55.18584690010175,None,0,,,,,,,001,1,0,2023-10-25_17h03.18.907,simon_task,2023.2.2,59.10078159982132,2023-10-25 17h03.33.355729 +0100,
incongruent,X,,,,,1,0,4,0,55.200745000038296,,,,,,,,55.18644670024514,55.1870654001832,55.187088900245726,55.200745000038296,55.200745000038296,55.200745000038296,55.401241100393236,56.2010600999929,56.2010600999929,56.2010600999929,56.2010600999929,57.20074470015243,57.20074470015243,57.18573850020766,None,0,,,,,,,001,1,0,2023-10-25_17h03.18.907,simon_task,2023.2.2,59.10078159982132,2023-10-25 17h03.33.355729 +0100,
congruent,X,,,,,1,1,5,1,57.20074470015243,,,,,,,,57.18643250036985,57.18703560018912,57.18706270027906,57.20074470015243,57.20074470015243,57.20074470015243,57.40183030022308,58.201272500213236,58.201272500213236,58.201272500213236,58.201272500213236,59.20079700043425,,59.200932500418276,None,0,,,,,,,001,1,0,2023-10-25_17h03.18.907,simon_task,2023.2.2,59.10078159982132,2023-10-25 17h03.33.355729 +0100,
incongruent,O,,,,,1,2,6,2,59.217576400376856,,,,,,,,59.20132079999894,59.20194880012423,59.201965200249106,59.217576400376856,59.217576400376856,59.217576400376856,59.40168240014464,60.217155300080776,60.217155300080776,60.217155300080776,60.217155300080776,61.233539500273764,61.201538100373,61.20271680038422,None,0,,,,,,,001,1,0,2023-10-25_17h03.18.907,simon_task,2023.2.2,59.10078159982132,2023-10-25 17h03.33.355729 +0100,
congruent,O,,,,,1,3,7,3,61.233539500273764,,,,,,,,61.20350050041452,61.20428270008415,61.204319700133055,61.233539500273764,61.233539500273764,61.233539500273764,61.4178697001189,62.21717200009152,62.23357250029221,62.23357250029221,62.23357250029221,63.218895400408655,63.218895400408655,63.204083900433034,None,0,,,,,,,001,1,0,2023-10-25_17h03.18.907,simon_task,2023.2.2,59.10078159982132,2023-10-25 17h03.33.355729 +0100,
