condition,stim,practice.thisRepN,practice.thisTrialN,practice.thisN,practice.thisIndex,trials.thisRepN,trials.thisTrialN,trials.thisN,trials.thisIndex,thisRow.t,notes,prac_instructions.started,key_instruct.started,prac_instructions.stopped,key_instruct.keys,key_instruct.rt,key_instruct.duration,simon_setup.started,simon_setup.stopped,simon_trial.started,fixation_cross.started,left_stim.started,right_stim.started,left_image.started,right_image.started,resp.started,ITI.started,fixation_cross.stopped,left_stim.stopped,right_stim.stopped,left_image.stopped,right_image.stopped,resp.stopped,ITI.stopped,simon_trial.stopped,resp.keys,resp.corr,resp.rt,resp.duration,trial_instructions.started,key_instruct_2.started,trial_instructions.stopped,key_instruct_2.keys,key_instruct_2.rt,key_instruct_2.duration,session,participant,counterbalance,date,expName,psychopyVersion,frameRate,expStart,
,,,,,,,,,,,,0.0067934999242424965,0.08955779997631907,7.259463499765843,space,7.164169800002128,None,,,,,,,,,,,,,,,,,,,,,,,,,,,,,1,99,0,2023-10-26_15h46.52.263,simon_task,2023.2.2,58.97231315729091,2023-10-26 15h47.12.484778 +0100,
congruent,O,0,0,0,7,,,,,7.289282899815589,,,,,,,,7.271466999780387,7.27215479966253,7.2721783998422325,7.289282899815589,7.289282899815589,7.289282899815589,7.289282899815589,7.289282899815589,7.4745859997347,8.77378399996087,8.790282199624926,8.790282199624926,8.790282199624926,8.790282199624926,8.790282199624926,9.27501569967717,9.773796199820936,9.758721699938178,m,0,0.7039306000806391,None,,,,,,,1,99,0,2023-10-26_15h46.52.263,simon_task,2023.2.2,58.97231315729091,2023-10-26 15h47.12.484778 +0100,
congruent,O,0,1,1,9,,,,,9.773796199820936,,,,,,,,9.759651700034738,9.760222599841654,9.760244799777865,9.773796199820936,9.773796199820936,9.773796199820936,9.773796199820936,9.773796199820936,9.974322999827564,11.274083700031042,11.274083700031042,11.274083700031042,11.274083700031042,11.274083700031042,11.274083700031042,11.774483399931341,12.273726399987936,12.258149900007993,m,0,0.5507820001803339,None,,,,,,,1,99,0,2023-10-26_15h46.52.263,simon_task,2023.2.2,58.97231315729091,2023-10-26 15h47.12.484778 +0100,
congruent,X,0,2,2,2,,,,,12.273726399987936,,,,,,,,12.258773499634117,12.259275000076741,12.259292599745095,12.273726399987936,12.273726399987936,12.273726399987936,12.273726399987936,12.273726399987936,12.474154999945313,13.775314699858427,13.775314699858427,13.775314699858427,13.775314699858427,13.775314699858427,13.775314699858427,14.273891099728644,,14.773970199748874,z,0,0.2619965001940727,None,,,,,,,1,99,0,2023-10-26_15h46.52.263,simon_task,2023.2.2,58.97231315729091,2023-10-26 15h47.12.484778 +0100,
congruent,O,0,3,3,3,,,,,14.790632199961692,,,,,,,,14.774689399637282,14.77538329968229,14.775409899652004,14.790632199961692,14.790632199961692,14.790632199961692,14.790632199961692,14.790632199961692,14.990305899642408,16.29016669979319,16.29016669979319,16.29016669979319,16.29016669979319,16.29016669979319,16.29016669979319,16.790432199835777,17.290530500002205,17.275393599644303,m,0,0.7546733999624848,None,,,,,,,1,99,0,2023-10-26_15h46.52.263,simon_task,2023.2.2,58.97231315729091,2023-10-26 15h47.12.484778 +0100,
congruent,X,0,4,4,8,,,,,17.290530500002205,,,,,,,,17.27612469997257,17.27677059965208,17.276793399825692,17.290530500002205,17.290530500002205,17.290530500002205,17.290530500002205,17.290530500002205,17.49103969987482,18.789979899767786,18.789979899767786,18.789979899767786,18.789979899767786,18.789979899767786,18.789979899767786,19.289974899962544,19.790490499697626,19.775348600000143,z,0,1.1617548000067472,None,,,,,,,1,99,0,2023-10-26_15h46.52.263,simon_task,2023.2.2,58.97231315729091,2023-10-26 15h47.12.484778 +0100,
congruent,O,0,5,5,1,,,,,19.790490499697626,,,,,,,,19.776123999617994,19.776876899879426,19.776903699617833,19.790490499697626,19.790490499697626,19.790490499697626,19.790490499697626,19.790490499697626,19.990933999884874,21.290123699698597,21.290123699698597,21.290123699698597,21.290123699698597,21.290123699698597,21.290123699698597,21.78996860003099,22.289465199690312,22.275126799941063,z,1,0.21314499992877245,None,,,,,,,1,99,0,2023-10-26_15h46.52.263,simon_task,2023.2.2,58.97231315729091,2023-10-26 15h47.12.484778 +0100,
congruent,X,0,6,6,4,,,,,22.289465199690312,,,,,,,,22.275796900037676,22.276415899861604,22.27644219994545,22.289465199690312,22.289465199690312,22.289465199690312,22.289465199690312,22.289465199690312,22.490027299616486,23.78975859982893,23.78975859982893,23.78975859982893,23.78975859982893,23.78975859982893,23.78975859982893,24.290907899849117,24.789885099977255,24.775236499961466,m,1,0.06764600006863475,None,,,,,,,1,99,0,2023-10-26_15h46.52.263,simon_task,2023.2.2,58.97231315729091,2023-10-26 15h47.12.484778 +0100,
congruent,X,0,7,7,6,,,,,24.789885099977255,,,,,,,,24.775917899794877,24.776369199622422,24.77638589963317,24.789885099977255,24.789885099977255,24.789885099977255,24.789885099977255,24.789885099977255,24.99009789992124,26.290292299818248,26.290292299818248,26.290292299818248,26.290292299818248,26.290292299818248,26.290292299818248,26.790120599791408,27.289526999928057,27.27392889978364,m,1,0.4862319999374449,None,,,,,,,1,99,0,2023-10-26_15h46.52.263,simon_task,2023.2.2,58.97231315729091,2023-10-26 15h47.12.484778 +0100,
congruent,X,0,8,8,0,,,,,27.289526999928057,,,,,,,,27.274404999800026,27.27491350006312,27.274931399617344,27.289526999928057,27.289526999928057,27.289526999928057,27.289526999928057,27.289526999928057,27.489462499972433,28.79017769964412,28.79017769964412,28.79017769964412,28.79017769964412,28.79017769964412,28.79017769964412,29.289784399792552,,29.77647849963978,m,1,0.25089759984984994,None,,,,,,,1,99,0,2023-10-26_15h46.52.263,simon_task,2023.2.2,58.97231315729091,2023-10-26 15h47.12.484778 +0100,
congruent,O,0,9,9,5,,,,,29.806544200051576,,,,,,,,29.777610399760306,29.7787595000118,29.77880029985681,29.806544200051576,29.806544200051576,29.806544200051576,29.806544200051576,29.806544200051576,29.99152350006625,31.289864900056273,31.30702119972557,31.30702119972557,31.30702119972557,31.30702119972557,31.30702119972557,31.806316799949855,32.28902560006827,32.27444739965722,z,1,0.24888909980654716,None,,,,,,,1,99,0,2023-10-26_15h46.52.263,simon_task,2023.2.2,58.97231315729091,2023-10-26 15h47.12.484778 +0100,
congruent,X,1,0,10,0,,,,,32.28902560006827,,,,,,,,32.27514289971441,32.275831699837,32.27585730003193,32.28902560006827,32.28902560006827,32.28902560006827,32.28902560006827,32.28902560006827,32.490614200010896,33.79009489994496,33.79009489994496,33.79009489994496,33.79009489994496,33.79009489994496,33.79009489994496,34.30639929976314,34.78940449981019,34.774963199626654,m,1,0.09899129997938871,None,,,,,,,1,99,0,2023-10-26_15h46.52.263,simon_task,2023.2.2,58.97231315729091,2023-10-26 15h47.12.484778 +0100,
congruent,X,1,1,11,8,,,,,34.78940449981019,,,,,,,,34.775701199658215,34.776291999965906,34.77631799969822,34.78940449981019,34.78940449981019,34.78940449981019,34.78940449981019,34.78940449981019,34.98991160001606,36.28945520007983,36.28945520007983,36.28945520007983,36.28945520007983,36.28945520007983,36.28945520007983,36.791002499870956,37.28915179986507,37.27379000000656,m,1,0.26418149983510375,None,,,,,,,1,99,0,2023-10-26_15h46.52.263,simon_task,2023.2.2,58.97231315729091,2023-10-26 15h47.12.484778 +0100,
congruent,O,1,2,12,5,,,,,37.28915179986507,,,,,,,,37.274328999686986,37.2747587999329,37.27478459989652,37.28915179986507,37.28915179986507,37.28915179986507,37.28915179986507,37.28915179986507,37.48993859998882,38.789239899721,38.789239899721,38.789239899721,38.789239899721,38.789239899721,38.789239899721,39.28933000005782,39.788989199791104,39.773916999809444,z,1,0.7149847997352481,None,,,,,,,1,99,0,2023-10-26_15h46.52.263,simon_task,2023.2.2,58.97231315729091,2023-10-26 15h47.12.484778 +0100,
congruent,O,1,3,13,1,,,,,39.788989199791104,,,,,,,,39.77464720001444,39.775219900067896,39.77524699969217,39.788989199791104,39.788989199791104,39.788989199791104,39.788989199791104,39.788989199791104,39.98944339994341,41.28906109975651,41.28906109975651,41.28906109975651,41.28906109975651,41.28906109975651,41.28906109975651,41.792088699992746,42.28944549988955,42.27378799999133,z,1,0.31807229993864894,None,,,,,,,1,99,0,2023-10-26_15h46.52.263,simon_task,2023.2.2,58.97231315729091,2023-10-26 15h47.12.484778 +0100,
congruent,X,1,4,14,2,,,,,42.28944549988955,,,,,,,,42.27433519996703,42.274911999702454,42.274933099746704,42.28944549988955,42.28944549988955,42.28944549988955,42.28944549988955,42.28944549988955,42.49034520005807,43.78927549999207,43.78927549999207,43.78927549999207,43.78927549999207,43.78927549999207,43.78927549999207,44.28959219995886,44.7889661998488,44.774058300070465,m,1,0.12189750000834465,None,,,,,,,1,99,0,2023-10-26_15h46.52.263,simon_task,2023.2.2,58.97231315729091,2023-10-26 15h47.12.484778 +0100,
congruent,O,1,5,15,9,,,,,44.7889661998488,,,,,,,,44.7747721998021,44.775280700065196,44.77532019978389,44.7889661998488,44.7889661998488,44.7889661998488,44.7889661998488,44.7889661998488,44.988923999946564,46.289418699685484,46.289418699685484,46.289418699685484,46.289418699685484,46.289418699685484,46.289418699685484,46.78841139981523,47.288790399674326,47.275919099804014,z,1,0.1508690002374351,None,,,,,,,1,99,0,2023-10-26_15h46.52.263,simon_task,2023.2.2,58.97231315729091,2023-10-26 15h47.12.484778 +0100,
congruent,X,1,6,16,4,,,,,47.288790399674326,,,,,,,,47.2766124997288,47.277204799931496,47.27722899988294,47.288790399674326,47.288790399674326,47.288790399674326,47.288790399674326,47.288790399674326,47.48906429996714,48.78900229977444,48.78900229977444,48.78900229977444,48.78900229977444,48.78900229977444,48.78900229977444,49.28890739986673,49.78855900000781,49.77390069980174,m,1,0.12128220032900572,None,,,,,,,1,99,0,2023-10-26_15h46.52.263,simon_task,2023.2.2,58.97231315729091,2023-10-26 15h47.12.484778 +0100,
congruent,X,1,7,17,6,,,,,49.78855900000781,,,,,,,,49.774580399971455,49.775212599895895,49.7752362000756,49.78855900000781,49.78855900000781,49.78855900000781,49.78855900000781,49.78855900000781,49.989353499840945,51.28897409979254,51.28897409979254,51.28897409979254,51.28897409979254,51.28897409979254,51.28897409979254,51.7887793998234,52.28864739974961,52.27356359967962,m,1,0.2507929001003504,None,,,,,,,1,99,0,2023-10-26_15h46.52.263,simon_task,2023.2.2,58.97231315729091,2023-10-26 15h47.12.484778 +0100,
congruent,O,1,8,18,3,,,,,52.28864739974961,,,,,,,,52.27428520005196,52.27487559989095,52.274899600073695,52.28864739974961,52.28864739974961,52.28864739974961,52.28864739974961,52.28864739974961,52.48889989964664,53.78771509975195,53.78771509975195,53.78771509975195,53.78771509975195,53.78771509975195,53.78771509975195,54.28896109992638,54.78876379970461,54.773594699800014,z,1,0.1301575000397861,None,,,,,,,1,99,0,2023-10-26_15h46.52.263,simon_task,2023.2.2,58.97231315729091,2023-10-26 15h47.12.484778 +0100,
congruent,O,1,9,19,7,,,,,54.78876379970461,,,,,,,,54.774336099624634,54.77490559965372,54.77492980007082,54.78876379970461,54.78876379970461,54.78876379970461,54.78876379970461,54.78876379970461,54.98957609990612,56.288905899971724,56.288905899971724,56.288905899971724,56.288905899971724,56.288905899971724,56.288905899971724,56.78874209988862,57.28838189970702,57.27570039965212,z,1,0.1751859998330474,None,,,,,,,1,99,0,2023-10-26_15h46.52.263,simon_task,2023.2.2,58.97231315729091,2023-10-26 15h47.12.484778 +0100,
,,,,,,,,,,,,,,,,,,,,,,,,,,,,,,,,,,,,,,,,57.27620909968391,57.28838189970702,58.62281830003485,space,1.325983399990946,None,1,99,0,2023-10-26_15h46.52.263,simon_task,2023.2.2,58.97231315729091,2023-10-26 15h47.12.484778 +0100,
incongruent,O,,,,,0,0,0,10,58.653533099684864,,,,,,,,58.62784139998257,58.62836219975725,58.62838470004499,58.653533099684864,58.653533099684864,58.653533099684864,58.653533099684864,58.653533099684864,58.8416844997555,60.137698099948466,60.15506859961897,60.15506859961897,60.15506859961897,60.15506859961897,60.15506859961897,60.65509289968759,61.13783989986405,61.12355519970879,z,1,0.9734259000979364,None,,,,,,,1,99,0,2023-10-26_15h46.52.263,simon_task,2023.2.2,58.97231315729091,2023-10-26 15h47.12.484778 +0100,
congruent,X,,,,,0,1,1,1,61.13783989986405,,,,,,,,61.124665999785066,61.12525469996035,61.1252803998068,61.13783989986405,61.13783989986405,61.13783989986405,61.13783989986405,61.13783989986405,61.33810949977487,62.638163399882615,62.638163399882615,62.638163399882615,62.638163399882615,62.638163399882615,62.638163399882615,63.137394099961966,63.63820349983871,63.622882599942386,m,1,0.5692924996837974,None,,,,,,,1,99,0,2023-10-26_15h46.52.263,simon_task,2023.2.2,58.97231315729091,2023-10-26 15h47.12.484778 +0100,
incongruent,X,,,,,0,2,2,4,63.63820349983871,,,,,,,,63.62357300007716,63.62401899974793,63.624043999705464,63.63820349983871,63.63820349983871,63.63820349983871,63.63820349983871,63.63820349983871,63.837726099882275,65.13804919971153,65.13804919971153,65.13804919971153,65.13804919971153,65.13804919971153,65.13804919971153,65.63813229976222,66.15366069972515,66.12406979966909,m,1,0.7656300002709031,None,,,,,,,1,99,0,2023-10-26_15h46.52.263,simon_task,2023.2.2,58.97231315729091,2023-10-26 15h47.12.484778 +0100,
incongruent,O,,,,,0,3,3,2,66.15366069972515,,,,,,,,66.12539829965681,66.12620909977704,66.12625099997967,66.15366069972515,66.15366069972515,66.15366069972515,66.15366069972515,66.15366069972515,66.33832219988108,67.63898409996182,67.65518359979615,67.65518359979615,67.65518359979615,67.65518359979615,67.65518359979615,68.13980979984626,68.63818719983101,68.62274000002071,z,1,0.7314671999774873,None,,,,,,,1,99,0,2023-10-26_15h46.52.263,simon_task,2023.2.2,58.97231315729091,2023-10-26 15h47.12.484778 +0100,
incongruent,O,,,,,0,4,4,6,68.63818719983101,,,,,,,,68.62343439972028,68.62402209965512,68.62405139999464,68.63818719983101,68.63818719983101,68.63818719983101,68.63818719983101,68.63818719983101,68.83842469984666,70.13880599988624,70.13880599988624,70.13880599988624,70.13880599988624,70.13880599988624,70.13880599988624,70.63739439984784,71.13760489970446,71.12222029967234,z,1,0.5514642996713519,None,,,,,,,1,99,0,2023-10-26_15h46.52.263,simon_task,2023.2.2,58.97231315729091,2023-10-26 15h47.12.484778 +0100,
congruent,O,,,,,0,5,5,11,71.13760489970446,,,,,,,,71.12291629984975,71.12341960007325,71.12344399979338,71.13760489970446,71.13760489970446,71.13760489970446,71.13760489970446,71.13760489970446,71.33771089976653,72.63751009991392,72.63751009991392,72.63751009991392,72.63751009991392,72.63751009991392,72.63751009991392,73.13764909980819,73.63717699982226,73.6217585997656,z,1,0.8814330999739468,None,,,,,,,1,99,0,2023-10-26_15h46.52.263,simon_task,2023.2.2,58.97231315729091,2023-10-26 15h47.12.484778 +0100,
incongruent,X,,,,,0,6,6,0,73.63717699982226,,,,,,,,73.62231849972159,73.62282119970769,73.62283929996192,73.63717699982226,73.63717699982226,73.63717699982226,73.63717699982226,73.63717699982226,73.8375523998402,75.13780419994146,75.13780419994146,75.13780419994146,75.13780419994146,75.13780419994146,75.13780419994146,75.63852799963206,76.13829089980572,76.12180759990588,m,1,0.3804246000945568,None,,,,,,,1,99,0,2023-10-26_15h46.52.263,simon_task,2023.2.2,58.97231315729091,2023-10-26 15h47.12.484778 +0100,
incongruent,X,,,,,0,7,7,8,76.13829089980572,,,,,,,,76.12248690007254,76.12297589983791,76.12300119968131,76.13829089980572,76.13829089980572,76.13829089980572,76.13829089980572,76.13829089980572,76.33791420003399,77.63754669995978,77.63754669995978,77.63754669995978,77.63754669995978,77.63754669995978,77.63754669995978,78.13757729995996,78.6374138998799,78.62189059983939,m,1,0.4352849000133574,None,,,,,,,1,99,0,2023-10-26_15h46.52.263,simon_task,2023.2.2,58.97231315729091,2023-10-26 15h47.12.484778 +0100,
congruent,X,,,,,0,8,8,5,78.6374138998799,,,,,,,,78.62259569996968,78.62311400007457,78.62313719978556,78.6374138998799,78.6374138998799,78.6374138998799,78.6374138998799,78.6374138998799,78.83752889977768,80.13665340002626,80.13665340002626,80.13665340002626,80.13665340002626,80.13665340002626,80.13665340002626,80.63754819985479,81.13695549964905,81.12189899990335,m,1,0.19747200002893806,None,,,,,,,1,99,0,2023-10-26_15h46.52.263,simon_task,2023.2.2,58.97231315729091,2023-10-26 15h47.12.484778 +0100,
congruent,X,,,,,0,9,9,9,81.13695549964905,,,,,,,,81.12265389971435,81.12328669987619,81.12331369984895,81.13695549964905,81.13695549964905,81.13695549964905,81.13695549964905,81.13695549964905,81.33665359998122,82.63726469967514,82.63726469967514,82.63726469967514,82.63726469967514,82.63726469967514,82.63726469967514,83.13727859966457,83.63728299969807,83.62233129981905,m,1,0.17813440039753914,None,,,,,,,1,99,0,2023-10-26_15h46.52.263,simon_task,2023.2.2,58.97231315729091,2023-10-26 15h47.12.484778 +0100,
congruent,O,,,,,0,10,10,7,83.63728299969807,,,,,,,,83.6230055000633,83.62354519963264,83.62356829969212,83.63728299969807,83.63728299969807,83.63728299969807,83.63728299969807,83.63728299969807,83.83727999962866,85.13712049974129,85.13712049974129,85.13712049974129,85.13712049974129,85.13712049974129,85.13712049974129,85.63757489994168,86.1373791997321,86.12088789977133,z,1,0.20185850001871586,None,,,,,,,1,99,0,2023-10-26_15h46.52.263,simon_task,2023.2.2,58.97231315729091,2023-10-26 15h47.12.484778 +0100,
congruent,O,,,,,0,11,11,3,86.1373791997321,,,,,,,,86.12142099998891,86.1219127997756,86.12192959990352,86.1373791997321,86.1373791997321,86.1373791997321,86.1373791997321,86.1373791997321,86.33691939990968,87.63684649998322,87.63684649998322,87.63684649998322,87.63684649998322,87.63684649998322,87.63684649998322,88.13721719989553,88.63710659975186,88.62113039987162,z,1,0.34359150007367134,None,,,,,,,1,99,0,2023-10-26_15h46.52.263,simon_task,2023.2.2,58.97231315729091,2023-10-26 15h47.12.484778 +0100,
congruent,O,,,,,1,0,12,7,88.63710659975186,,,,,,,,88.62181749986485,88.62230239994824,88.62232689978555,88.63710659975186,88.63710659975186,88.63710659975186,88.63710659975186,88.63710659975186,88.83752409974113,90.13723289966583,90.13723289966583,90.13723289966583,90.13723289966583,90.13723289966583,90.13723289966583,90.63701709965244,91.13715799991041,91.12130079977214,z,1,0.1431696997024119,None,,,,,,,1,99,0,2023-10-26_15h46.52.263,simon_task,2023.2.2,58.97231315729091,2023-10-26 15h47.12.484778 +0100,
incongruent,O,,,,,1,1,13,10,91.13715799991041,,,,,,,,91.12205319991335,91.12256029993296,91.12258209986612,91.13715799991041,91.13715799991041,91.13715799991041,91.13715799991041,91.13715799991041,91.33749020006508,92.63688230002299,92.63688230002299,92.63688230002299,92.63688230002299,92.63688230002299,92.63688230002299,93.13712859991938,93.63655349984765,93.62218259973451,z,1,0.4755589999258518,None,,,,,,,1,99,0,2023-10-26_15h46.52.263,simon_task,2023.2.2,58.97231315729091,2023-10-26 15h47.12.484778 +0100,
incongruent,X,,,,,1,2,14,4,93.63655349984765,,,,,,,,93.62286309991032,93.6234007999301,93.62343079969287,93.63655349984765,93.63655349984765,93.63655349984765,93.63655349984765,93.63655349984765,93.8362948000431,95.13669040007517,95.13669040007517,95.13669040007517,95.13669040007517,95.13669040007517,95.13669040007517,95.63596969982609,96.1362105999142,96.1210473999381,m,1,0.23170589981600642,None,,,,,,,1,99,0,2023-10-26_15h46.52.263,simon_task,2023.2.2,58.97231315729091,2023-10-26 15h47.12.484778 +0100,
congruent,X,,,,,1,3,15,9,96.1362105999142,,,,,,,,96.12169279996306,96.12225589994341,96.12227639975026,96.1362105999142,96.1362105999142,96.1362105999142,96.1362105999142,96.1362105999142,96.33638580003753,97.63702740008011,97.63702740008011,97.63702740008011,97.63702740008011,97.63702740008011,97.63702740008011,98.1363359997049,98.63624189980328,98.62090179976076,m,1,0.24567839968949556,None,,,,,,,1,99,0,2023-10-26_15h46.52.263,simon_task,2023.2.2,58.97231315729091,2023-10-26 15h47.12.484778 +0100,
congruent,X,,,,,1,4,16,5,98.63624189980328,,,,,,,,98.62166889989749,98.62231440003961,98.62233919976279,98.63624189980328,98.63624189980328,98.63624189980328,98.63624189980328,98.63624189980328,98.8362105996348,100.13640399975702,100.13640399975702,100.13640399975702,100.13640399975702,100.13640399975702,100.13640399975702,100.6359103997238,101.13641169993207,101.12038700003177,m,1,0.18631899962201715,None,,,,,,,1,99,0,2023-10-26_15h46.52.263,simon_task,2023.2.2,58.97231315729091,2023-10-26 15h47.12.484778 +0100,
incongruent,O,,,,,1,5,17,2,101.13641169993207,,,,,,,,101.12109019979835,101.12161119980738,101.12163359997794,101.13641169993207,101.13641169993207,101.13641169993207,101.13641169993207,101.13641169993207,101.33633189974353,102.6362083000131,102.6362083000131,102.6362083000131,102.6362083000131,102.6362083000131,102.6362083000131,103.1362632997334,103.63622709969059,103.62081879982725,z,1,0.4486738000996411,None,,,,,,,1,99,0,2023-10-26_15h46.52.263,simon_task,2023.2.2,58.97231315729091,2023-10-26 15h47.12.484778 +0100,
congruent,O,,,,,1,6,18,3,103.63622709969059,,,,,,,,103.62151349987835,103.62212509987876,103.62215019995347,103.63622709969059,103.63622709969059,103.63622709969059,103.63622709969059,103.63622709969059,103.83607719978318,105.1376326000318,105.1376326000318,105.1376326000318,105.1376326000318,105.1376326000318,105.1376326000318,105.63766760006547,106.1518504996784,106.12225149990991,z,1,0.4117525997571647,None,,,,,,,1,99,0,2023-10-26_15h46.52.263,simon_task,2023.2.2,58.97231315729091,2023-10-26 15h47.12.484778 +0100,
incongruent,X,,,,,1,7,19,8,106.1518504996784,,,,,,,,106.12343119969591,106.12438609963283,106.12442389968783,106.1518504996784,106.1518504996784,106.1518504996784,106.1518504996784,106.1518504996784,106.33655409980565,107.63657279964536,107.6528794998303,107.6528794998303,107.6528794998303,107.6528794998303,107.6528794998303,108.13642739970237,108.6361579997465,108.62045979965478,m,1,0.32651029992848635,None,,,,,,,1,99,0,2023-10-26_15h46.52.263,simon_task,2023.2.2,58.97231315729091,2023-10-26 15h47.12.484778 +0100,
incongruent,X,,,,,1,8,20,0,108.6361579997465,,,,,,,,108.62116039963439,108.62159639969468,108.62162079988047,108.6361579997465,108.6361579997465,108.6361579997465,108.6361579997465,108.6361579997465,108.83649289980531,110.1365048000589,110.1365048000589,110.1365048000589,110.1365048000589,110.1365048000589,110.1365048000589,110.63620819989592,111.15151509968564,111.12104899995029,m,1,0.21311770007014275,None,,,,,,,1,99,0,2023-10-26_15h46.52.263,simon_task,2023.2.2,58.97231315729091,2023-10-26 15h47.12.484778 +0100,
congruent,X,,,,,1,9,21,1,111.15151509968564,,,,,,,,111.12170699983835,111.12236410006881,111.12238929979503,111.15151509968564,111.15151509968564,111.15151509968564,111.15151509968564,111.15151509968564,111.33589919982478,112.63538299966604,112.65324559994042,112.65324559994042,112.65324559994042,112.65324559994042,112.65324559994042,113.13619009964168,113.63516229996458,113.62017509993166,m,1,0.21313440008088946,None,,,,,,,1,99,0,2023-10-26_15h46.52.263,simon_task,2023.2.2,58.97231315729091,2023-10-26 15h47.12.484778 +0100,
incongruent,O,,,,,1,10,22,6,113.63516229996458,,,,,,,,113.62087389966473,113.62151039997116,113.62153519969434,113.63516229996458,113.63516229996458,113.63516229996458,113.63516229996458,113.63516229996458,113.83559469971806,115.13582219975069,115.13582219975069,115.13582219975069,115.13582219975069,115.13582219975069,115.13582219975069,115.63576600002125,116.13478960003704,116.12134369974956,z,1,0.3108481001108885,None,,,,,,,1,99,0,2023-10-26_15h46.52.263,simon_task,2023.2.2,58.97231315729091,2023-10-26 15h47.12.484778 +0100,
congruent,O,,,,,1,11,23,11,116.13478960003704,,,,,,,,116.12220859993249,116.12279739975929,116.12282339995727,116.13478960003704,116.13478960003704,116.13478960003704,116.13478960003704,116.13478960003704,116.33587959967554,117.6352689997293,117.6352689997293,117.6352689997293,117.6352689997293,117.6352689997293,117.6352689997293,118.13585769990459,118.63524269964546,118.62002100003883,z,1,0.1491843000985682,None,,,,,,,1,99,0,2023-10-26_15h46.52.263,simon_task,2023.2.2,58.97231315729091,2023-10-26 15h47.12.484778 +0100,
congruent,O,,,,,2,0,24,11,118.63524269964546,,,,,,,,118.62050229962915,118.62112919986248,118.62114719999954,118.63524269964546,118.63524269964546,118.63524269964546,118.63524269964546,118.63524269964546,118.83546149963513,120.13552729971707,120.13552729971707,120.13552729971707,120.13552729971707,120.13552729971707,120.13552729971707,120.63537529995665,121.1345453998074,121.11973939975724,z,1,0.21229369984939694,None,,,,,,,1,99,0,2023-10-26_15h46.52.263,simon_task,2023.2.2,58.97231315729091,2023-10-26 15h47.12.484778 +0100,
congruent,O,,,,,2,1,25,7,121.1345453998074,,,,,,,,121.12030219985172,121.1207671999,121.12078939983621,121.1345453998074,121.1345453998074,121.1345453998074,121.1345453998074,121.1345453998074,121.33521749963984,122.63480889983475,122.63480889983475,122.63480889983475,122.63480889983475,122.63480889983475,122.63480889983475,123.13528939988464,123.63504479965195,123.6194030996412,z,1,0.20280009973794222,None,,,,,,,1,99,0,2023-10-26_15h46.52.263,simon_task,2023.2.2,58.97231315729091,2023-10-26 15h47.12.484778 +0100,
incongruent,X,,,,,2,2,26,0,123.63504479965195,,,,,,,,123.62005259981379,123.62060409970582,123.6206271997653,123.63504479965195,123.63504479965195,123.63504479965195,123.63504479965195,123.63504479965195,123.81851969985291,125.13598969997838,125.13598969997838,125.13598969997838,125.13598969997838,125.13598969997838,125.13598969997838,125.61873839981854,126.13450619997457,126.11926329974085,m,1,0.3265802999958396,None,,,,,,,1,99,0,2023-10-26_15h46.52.263,simon_task,2023.2.2,58.97231315729091,2023-10-26 15h47.12.484778 +0100,
congruent,X,,,,,2,3,27,9,126.13450619997457,,,,,,,,126.11976609984413,126.1202690997161,126.12028579972684,126.13450619997457,126.13450619997457,126.13450619997457,126.13450619997457,126.13450619997457,126.31879679998383,127.63480339990929,127.63480339990929,127.63480339990929,127.63480339990929,127.63480339990929,127.63480339990929,128.11825269972906,128.6349589000456,128.61977860005572,m,1,0.13326739985495806,None,,,,,,,1,99,0,2023-10-26_15h46.52.263,simon_task,2023.2.2,58.97231315729091,2023-10-26 15h47.12.484778 +0100,
congruent,X,,,,,2,4,28,5,128.6349589000456,,,,,,,,128.62057789973915,128.62116959970444,128.62119229976088,128.6349589000456,128.6349589000456,128.6349589000456,128.6349589000456,128.6349589000456,128.83477399963886,130.13498619990423,130.13498619990423,130.13498619990423,130.13498619990423,130.13498619990423,130.13498619990423,130.63612269982696,131.13471290003508,131.11910820007324,m,1,0.1548890001140535,None,,,,,,,1,99,0,2023-10-26_15h46.52.263,simon_task,2023.2.2,58.97231315729091,2023-10-26 15h47.12.484778 +0100,
congruent,O,,,,,2,5,29,3,131.13471290003508,,,,,,,,131.11983649991453,131.12034149980173,131.12036659987643,131.13471290003508,131.13471290003508,131.13471290003508,131.13471290003508,131.13471290003508,131.33494520001113,132.6342152999714,132.6342152999714,132.6342152999714,132.6342152999714,132.6342152999714,132.6342152999714,133.13481129985303,133.63487769989297,133.6188831999898,z,1,0.3038630997762084,None,,,,,,,1,99,0,2023-10-26_15h46.52.263,simon_task,2023.2.2,58.97231315729091,2023-10-26 15h47.12.484778 +0100,
congruent,X,,,,,2,6,30,1,133.63487769989297,,,,,,,,133.61958749964833,133.61995719978586,133.61997639993206,133.63487769989297,133.63487769989297,133.63487769989297,133.63487769989297,133.63487769989297,133.83549239998683,135.13519260007888,135.13519260007888,135.13519260007888,135.13519260007888,135.13519260007888,135.13519260007888,135.63484159996733,136.13448329968378,136.1187897999771,m,1,0.2332035000436008,None,,,,,,,1,99,0,2023-10-26_15h46.52.263,simon_task,2023.2.2,58.97231315729091,2023-10-26 15h47.12.484778 +0100,
incongruent,O,,,,,2,7,31,10,136.13448329968378,,,,,,,,136.11952019995078,136.12012359965593,136.12014399981126,136.13448329968378,136.13448329968378,136.13448329968378,136.13448329968378,136.13448329968378,136.33510859962553,137.63497280003503,137.63497280003503,137.63497280003503,137.63497280003503,137.63497280003503,137.63497280003503,138.13432070007548,138.63449689978734,138.6190173998475,z,1,0.6669546999037266,None,,,,,,,1,99,0,2023-10-26_15h46.52.263,simon_task,2023.2.2,58.97231315729091,2023-10-26 15h47.12.484778 +0100,
incongruent,X,,,,,2,8,32,8,138.63449689978734,,,,,,,,138.6196343996562,138.6201971997507,138.62021749978885,138.63449689978734,138.63449689978734,138.63449689978734,138.63449689978734,138.63449689978734,138.8344103996642,140.13428639993072,140.13428639993072,140.13428639993072,140.13428639993072,140.13428639993072,140.13428639993072,140.63393669994548,141.13420089986175,141.11907649971545,m,1,0.3135798000730574,None,,,,,,,1,99,0,2023-10-26_15h46.52.263,simon_task,2023.2.2,58.97231315729091,2023-10-26 15h47.12.484778 +0100,
incongruent,X,,,,,2,9,33,4,141.13420089986175,,,,,,,,141.11980680003762,141.12043819995597,141.12045599985868,141.13420089986175,141.13420089986175,141.13420089986175,141.13420089986175,141.13420089986175,141.33469949988648,142.63451469969004,142.63451469969004,142.63451469969004,142.63451469969004,142.63451469969004,142.63451469969004,143.1346491998993,143.63385859970003,143.61900309985504,m,1,0.43452889984473586,None,,,,,,,1,99,0,2023-10-26_15h46.52.263,simon_task,2023.2.2,58.97231315729091,2023-10-26 15h47.12.484778 +0100,
incongruent,O,,,,,2,10,34,2,143.63385859970003,,,,,,,,143.6199101000093,143.62063959985971,143.62066169967875,143.63385859970003,143.63385859970003,143.63385859970003,143.63385859970003,143.63385859970003,143.8342271000147,145.13405560003594,145.13405560003594,145.13405560003594,145.13405560003594,145.13405560003594,145.13405560003594,145.63429069984704,146.1340959998779,146.1196178998798,z,1,0.2541614002548158,None,,,,,,,1,99,0,2023-10-26_15h46.52.263,simon_task,2023.2.2,58.97231315729091,2023-10-26 15h47.12.484778 +0100,
incongruent,O,,,,,2,11,35,6,146.1340959998779,,,,,,,,146.1205714996904,146.12130509968847,146.12134219985455,146.1340959998779,146.1340959998779,146.1340959998779,146.1340959998779,146.1340959998779,146.3342573000118,147.63457140000537,147.63457140000537,147.63457140000537,147.63457140000537,147.63457140000537,147.63457140000537,148.13402449991554,148.6340930997394,148.61913579981774,z,1,0.30503750033676624,None,,,,,,,1,99,0,2023-10-26_15h46.52.263,simon_task,2023.2.2,58.97231315729091,2023-10-26 15h47.12.484778 +0100,
congruent,O,,,,,3,0,36,3,148.6340930997394,,,,,,,,148.61992309987545,148.620527099818,148.62055249977857,148.6340930997394,148.6340930997394,148.6340930997394,148.6340930997394,148.6340930997394,148.83741569984704,150.1348389997147,150.1348389997147,150.1348389997147,150.1348389997147,150.1348389997147,150.1348389997147,150.65182589972392,151.13379079988226,151.11836469965056,z,1,0.5041517000645399,None,,,,,,,1,99,0,2023-10-26_15h46.52.263,simon_task,2023.2.2,58.97231315729091,2023-10-26 15h47.12.484778 +0100,
incongruent,X,,,,,3,1,37,0,151.13379079988226,,,,,,,,151.1189350998029,151.11960079986602,151.11962229991332,151.13379079988226,151.13379079988226,151.13379079988226,151.13379079988226,151.13379079988226,151.33394149970263,152.63390300003812,152.63390300003812,152.63390300003812,152.63390300003812,152.63390300003812,152.63390300003812,153.13372119981796,153.633576199878,153.61899659968913,m,1,0.5148060000501573,None,,,,,,,1,99,0,2023-10-26_15h46.52.263,simon_task,2023.2.2,58.97231315729091,2023-10-26 15h47.12.484778 +0100,
incongruent,X,,,,,3,2,38,8,153.633576199878,,,,,,,,153.61974019976333,153.62023689970374,153.62026149965823,153.633576199878,153.633576199878,153.633576199878,153.633576199878,153.633576199878,153.83336979988962,155.13357200007886,155.13357200007886,155.13357200007886,155.13357200007886,155.13357200007886,155.13357200007886,155.63430169969797,156.13328860001639,156.11838099965826,m,1,0.33693449990823865,None,,,,,,,1,99,0,2023-10-26_15h46.52.263,simon_task,2023.2.2,58.97231315729091,2023-10-26 15h47.12.484778 +0100,
congruent,O,,,,,3,3,39,11,156.13328860001639,,,,,,,,156.11904569994658,156.11967450007796,156.11970219993964,156.13328860001639,156.13328860001639,156.13328860001639,156.13328860001639,156.13328860001639,156.33380729984492,157.6343095996417,157.6343095996417,157.6343095996417,157.6343095996417,157.6343095996417,157.6343095996417,158.13384209992364,158.63321119965985,158.61843119980767,z,1,0.38470919989049435,None,,,,,,,1,99,0,2023-10-26_15h46.52.263,simon_task,2023.2.2,58.97231315729091,2023-10-26 15h47.12.484778 +0100,
incongruent,O,,,,,3,4,40,2,158.63321119965985,,,,,,,,158.61901049967855,158.61951379990205,158.61953500006348,158.63321119965985,158.63321119965985,158.63321119965985,158.63321119965985,158.63321119965985,158.83349159965292,160.13340479973704,160.13340479973704,160.13340479973704,160.13340479973704,160.13340479973704,160.13340479973704,160.63320679962635,161.13333889981732,161.11822830000892,z,1,0.4317840998992324,None,,,,,,,1,99,0,2023-10-26_15h46.52.263,simon_task,2023.2.2,58.97231315729091,2023-10-26 15h47.12.484778 +0100,
congruent,O,,,,,3,5,41,7,161.13333889981732,,,,,,,,161.11895549995825,161.1196439000778,161.1196713000536,161.13333889981732,161.13333889981732,161.13333889981732,161.13333889981732,161.13333889981732,161.33315149974078,162.6339217000641,162.6339217000641,162.6339217000641,162.6339217000641,162.6339217000641,162.6339217000641,163.13319289963692,163.64865370001644,163.61846160003915,z,1,0.484748899936676,None,,,,,,,1,99,0,2023-10-26_15h46.52.263,simon_task,2023.2.2,58.97231315729091,2023-10-26 15h47.12.484778 +0100,
congruent,X,,,,,3,6,42,9,163.64865370001644,,,,,,,,163.61910149967298,163.61959349969402,163.619620999787,163.64865370001644,163.64865370001644,163.64865370001644,163.64865370001644,163.64865370001644,163.83367129974067,165.13286620005965,165.14982229983434,165.14982229983434,165.14982229983434,165.14982229983434,165.14982229983434,165.63247329974547,166.13289000000805,166.11856509977952,m,1,0.23220960004255176,None,,,,,,,1,99,0,2023-10-26_15h46.52.263,simon_task,2023.2.2,58.97231315729091,2023-10-26 15h47.12.484778 +0100,
incongruent,O,,,,,3,7,43,10,166.13289000000805,,,,,,,,166.11928849993274,166.12013270007446,166.12015819968656,166.13289000000805,166.13289000000805,166.13289000000805,166.13289000000805,166.13289000000805,166.33326869970188,167.63334629964083,167.63334629964083,167.63334629964083,167.63334629964083,167.63334629964083,167.63334629964083,168.13368560001254,168.633091900032,168.61843899963424,z,1,0.5421574995853007,None,,,,,,,1,99,0,2023-10-26_15h46.52.263,simon_task,2023.2.2,58.97231315729091,2023-10-26 15h47.12.484778 +0100,
incongruent,O,,,,,3,8,44,6,168.633091900032,,,,,,,,168.61934420000762,168.61989709967747,168.61993719963357,168.633091900032,168.633091900032,168.633091900032,168.633091900032,168.633091900032,168.8333565997891,170.13306579971686,170.13306579971686,170.13306579971686,170.13306579971686,170.13306579971686,170.13306579971686,170.63298809994012,171.1324640000239,171.11908729979768,z,1,0.399175800383091,None,,,,,,,1,99,0,2023-10-26_15h46.52.263,simon_task,2023.2.2,58.97231315729091,2023-10-26 15h47.12.484778 +0100,
congruent,X,,,,,3,9,45,5,171.1324640000239,,,,,,,,171.11987769976258,171.1205158000812,171.12054509995505,171.1324640000239,171.1324640000239,171.1324640000239,171.1324640000239,171.1324640000239,171.3335930998437,172.63186009973288,172.63186009973288,172.63186009973288,172.63186009973288,172.63186009973288,172.63186009973288,173.13300290005282,173.63344920007512,173.6172165996395,z,0,0.4757325001992285,None,,,,,,,1,99,0,2023-10-26_15h46.52.263,simon_task,2023.2.2,58.97231315729091,2023-10-26 15h47.12.484778 +0100,
incongruent,X,,,,,3,10,46,4,173.63344920007512,,,,,,,,173.6177363996394,173.61828769976273,173.61830629967153,173.63344920007512,173.63344920007512,173.63344920007512,173.63344920007512,173.63344920007512,173.83152929972857,175.13289009965956,175.13289009965956,175.13289009965956,175.13289009965956,175.13289009965956,175.13289009965956,175.63323180004954,176.13259499985725,176.11702249990776,m,1,0.38471469981595874,None,,,,,,,1,99,0,2023-10-26_15h46.52.263,simon_task,2023.2.2,58.97231315729091,2023-10-26 15h47.12.484778 +0100,
congruent,X,,,,,3,11,47,1,176.13259499985725,,,,,,,,176.11780699994415,176.11829879973084,176.11832399992272,176.13259499985725,176.13259499985725,176.13259499985725,176.13259499985725,176.13259499985725,176.3333886996843,177.63273749966174,177.63273749966174,177.63273749966174,177.63273749966174,177.63273749966174,177.63273749966174,178.1502044997178,178.63272539991885,178.61700639966875,m,1,0.3620607000775635,None,,,,,,,1,99,0,2023-10-26_15h46.52.263,simon_task,2023.2.2,58.97231315729091,2023-10-26 15h47.12.484778 +0100,
